# Step     T (K)     E_KS (eV)    E_tot (eV)   Vol (A^3)    P (kBar)
     1      0.00   -1011.28331   -1011.27495    1000.000      23.335
     2    188.53   -1011.83436   -1011.62820    1000.000       6.048
     3    149.87   -1012.38958   -1011.86859    1000.000       2.196
     4     18.14   -1012.51134   -1011.78435    1000.000       6.015
     5      8.27   -1012.59888   -1011.82820    1000.000       1.378
     6      4.24   -1012.61770   -1011.83236    1000.000       1.787
     7      2.34   -1012.61858   -1011.82929    1000.000       1.694
     8      3.48   -1012.62295   -1011.83073    1000.000       0.281
     9      5.79   -1012.62274   -1011.83104    1000.000      -0.487
    10     12.17   -1012.61178   -1011.82943    1000.000      -0.463
    11     47.97   -1012.59542   -1011.85312    1000.000      -3.371
    12    110.11   -1012.47411   -1011.86224    1000.000      -7.900
    13     87.91   -1012.23315   -1011.79012    1000.000      -7.504
    14     29.41   -1012.14697   -1011.80806    1000.000     -12.638
    15     53.24   -1012.10088   -1011.76460    1000.000     -14.464
    16    179.00   -1012.40181   -1011.91977    1000.000      -5.991
    17     93.28   -1012.59074   -1011.91422    1000.000      -2.009
    18     12.13   -1012.61005   -1011.84777    1000.000      -1.544
    19      3.12   -1012.62184   -1011.84823    1000.000       0.047
    20      1.24   -1012.62164   -1011.84668    1000.000       0.585
    21      1.22   -1012.62186   -1011.84658    1000.000       0.266
    22      3.28   -1012.62298   -1011.84774    1000.000       0.595
    23     13.77   -1012.61679   -1011.84899    1000.000       1.406
    24     84.40   -1012.60028   -1011.89201    1000.000      -0.291
    25    179.64   -1012.53538   -1011.94706    1000.000      -0.996
    26     85.29   -1012.40049   -1011.84768    1000.000       0.585
    27     18.75   -1012.40197   -1011.83641    1000.000      -2.084
    28     21.36   -1012.43339   -1011.83967    1000.000      -1.553
    29     38.30   -1012.47028   -1011.84045    1000.000       0.241
    30     55.91   -1012.51483   -1011.85247    1000.000      -0.359
    31     61.48   -1012.54220   -1011.85255    1000.000      -0.042
    32     57.15   -1012.57148   -1011.85080    1000.000       1.481
    33     48.50   -1012.60515   -1011.85349    1000.000       0.907
    34     36.75   -1012.61751   -1011.84862    1000.000       0.343
    35     27.86   -1012.61830   -1011.84716    1000.000       0.791
    36     22.14   -1012.60659   -1011.84673    1000.000       0.199
    37     19.92   -1012.58210   -1011.84409    1000.000      -1.023
    38     31.53   -1012.55915   -1011.85061    1000.000      -0.720
    39     74.65   -1012.51942   -1011.86587    1000.000      -0.474
    40    112.06   -1012.43581   -1011.86278    1000.000      -3.258
    41     75.94   -1012.37784   -1011.85632    1000.000      -1.433
    42     13.92   -1012.29006   -1011.81844    1000.000       0.309
    43     16.54   -1012.29642   -1011.82412    1000.000      -1.221
    44     85.95   -1012.37190   -1011.85438    1000.000      -0.014
    45    128.56   -1012.44777   -1011.86336    1000.000       3.758
    46     70.03   -1012.54217   -1011.86090    1000.000       1.033
    47     24.33   -1012.58218   -1011.84502    1000.000       1.498
    48     12.35   -1012.59352   -1011.83680    1000.000       1.925
    49     14.54   -1012.61049   -1011.83976    1000.000       0.484
    50     22.08   -1012.61853   -1011.84049    1000.000      -0.373
    51     37.99   -1012.61585   -1011.84269    1000.000      -0.097
    52     63.74   -1012.60634   -1011.85573    1000.000      -1.666
    53     73.37   -1012.56252   -1011.85181    1000.000      -2.631
    54     58.01   -1012.51854   -1011.84270    1000.000      -0.940
    55     39.97   -1012.49576   -1011.84347    1000.000      -0.993
    56     27.62   -1012.46174   -1011.83337    1000.000      -1.169
    57     32.70   -1012.44926   -1011.83927    1000.000       1.499
    58     53.03   -1012.42362   -1011.84097    1000.000       3.274
    59     92.73   -1012.39095   -1011.83382    1000.000       2.164
    60    119.97   -1012.48119   -1011.88203    1000.000       4.881
    61     71.56   -1012.54539   -1011.85695    1000.000       4.844
    62     30.13   -1012.59211   -1011.84166    1000.000       1.703
    63     16.19   -1012.61821   -1011.84222    1000.000       1.393
    64      9.53   -1012.61893   -1011.83857    1000.000       0.952
    65      8.31   -1012.61718   -1011.83942    1000.000      -0.815
    66      9.98   -1012.60861   -1011.84038    1000.000      -1.709
    67     12.94   -1012.57637   -1011.83130    1000.000      -1.216
    68     51.41   -1012.54994   -1011.86131    1000.000      -4.932
    69    125.79   -1012.37904   -1011.85553    1000.000      -9.525
    70     97.04   -1012.00609   -1011.67420    1000.000      -5.277
    71     77.40   -1012.09779   -1011.79776    1000.000     -13.918
    72     76.28   -1012.13395   -1011.77854    1000.000     -13.200
    73     90.03   -1012.32857   -1011.83024    1000.000      -4.526
    74     61.67   -1012.53478   -1011.89073    1000.000      -4.604
    75     24.10   -1012.57996   -1011.86619    1000.000      -2.979
    76     12.96   -1012.60370   -1011.86382    1000.000      -0.453
    77      9.51   -1012.61341   -1011.86467    1000.000       0.164
    78      8.63   -1012.61083   -1011.86251    1000.000       0.531
    79     15.29   -1012.60859   -1011.86498    1000.000       1.990
    80     47.33   -1012.59981   -1011.87636    1000.000       2.850
    81    118.70   -1012.57437   -1011.90324    1000.000       1.393
    82    125.77   -1012.57664   -1011.91712    1000.000       1.934
    83     47.24   -1012.55883   -1011.87258    1000.000       1.280
    84     11.07   -1012.55170   -1011.86087    1000.000      -0.679
    85      5.90   -1012.55320   -1011.86229    1000.000      -0.485
    86     11.27   -1012.55306   -1011.86007    1000.000       0.063
    87     45.85   -1012.56645   -1011.87234    1000.000      -1.095
    88    112.36   -1012.57862   -1011.90512    1000.000      -0.688
    89    105.96   -1012.55610   -1011.88900    1000.000       1.507
    90     44.16   -1012.55459   -1011.86979    1000.000       0.080
    91     15.62   -1012.55078   -1011.86122    1000.000       0.249
    92     13.92   -1012.55278   -1011.85830    1000.000       1.176
    93     32.56   -1012.57207   -1011.86596    1000.000       0.107
    94     69.63   -1012.58640   -1011.87649    1000.000      -0.688
    95     90.25   -1012.59244   -1011.88407    1000.000       0.374
    96     63.01   -1012.59073   -1011.87697    1000.000      -0.772
    97     30.85   -1012.57816   -1011.86317    1000.000      -1.354
    98     20.52   -1012.57638   -1011.86220    1000.000      -0.149
    99     23.40   -1012.57518   -1011.86433    1000.000       0.127
   100     37.70   -1012.56303   -1011.86504    1000.000      -0.165
# Step     T (K)     E_KS (eV)    E_tot (eV)   Vol (A^3)    P (kBar)
     1     37.70   -1012.54599   -1012.49239    1000.000       1.644
     2     15.14   -1012.51279   -1012.49127    1000.000       1.700
     3      9.84   -1012.50466   -1012.49067    1000.000       1.678
     4     26.66   -1012.52944   -1012.49154    1000.000       1.661
     5     52.59   -1012.56898   -1012.49420    1000.000       0.362
     6     69.28   -1012.59286   -1012.49436    1000.000      -0.737
     7     69.76   -1012.59292   -1012.49373    1000.000      -1.042
     8     59.30   -1012.57754   -1012.49323    1000.000      -1.684
     9     48.66   -1012.56094   -1012.49175    1000.000      -1.925
    10     44.55   -1012.55586   -1012.49253    1000.000      -0.819
    11     43.43   -1012.55507   -1012.49331    1000.000      -0.013
    12     39.96   -1012.54963   -1012.49282    1000.000       0.550
    13     34.08   -1012.54139   -1012.49294    1000.000       1.760
    14     30.73   -1012.53545   -1012.49175    1000.000       2.218
    15     36.09   -1012.54306   -1012.49175    1000.000       1.423
    16     48.08   -1012.56179   -1012.49343    1000.000       0.962
    17     56.78   -1012.57399   -1012.49326    1000.000       0.244
    18     56.12   -1012.57359   -1012.49380    1000.000      -1.252
    19     46.78   -1012.55982   -1012.49332    1000.000      -1.713
    20     35.86   -1012.54271   -1012.49172    1000.000      -1.335
    21     32.07   -1012.53787   -1012.49226    1000.000      -1.348
    22     37.50   -1012.54570   -1012.49238    1000.000      -0.610
    23     47.10   -1012.55966   -1012.49270    1000.000       0.850
    24     52.67   -1012.56874   -1012.49385    1000.000       1.294
    25     51.64   -1012.56597   -1012.49255    1000.000       1.546
    26     48.52   -1012.56139   -1012.49240    1000.000       1.988
    27     47.87   -1012.56069   -1012.49263    1000.000       1.205
    28     52.14   -1012.56630   -1012.49217    1000.000      -0.060
    29     58.33   -1012.57683   -1012.49390    1000.000      -0.515
    30     56.26   -1012.57432   -1012.49433    1000.000      -1.277
    31     42.09   -1012.55291   -1012.49307    1000.000      -2.056
    32     23.81   -1012.52661   -1012.49277    1000.000      -1.358
    33     12.26   -1012.50869   -1012.49125    1000.000      -0.392
    34     17.23   -1012.51581   -1012.49132    1000.000      -0.009
    35     38.03   -1012.54701   -1012.49294    1000.000       1.164
    36     62.28   -1012.58213   -1012.49357    1000.000       2.205
    37     75.63   -1012.60231   -1012.49478    1000.000       1.677
    38     71.97   -1012.59649   -1012.49417    1000.000       1.177
    39     56.83   -1012.57330   -1012.49249    1000.000       0.735
    40     41.10   -1012.55095   -1012.49252    1000.000      -0.769
    41     33.33   -1012.53915   -1012.49176    1000.000      -1.680
    42     36.49   -1012.54403   -1012.49214    1000.000      -1.500
    43     44.08   -1012.55663   -1012.49396    1000.000      -1.566
    44     46.00   -1012.55887   -1012.49347    1000.000      -1.257
    45     41.13   -1012.55129   -1012.49281    1000.000       0.247
    46     35.60   -1012.54286   -1012.49224    1000.000       1.138
    47     36.93   -1012.54429   -1012.49178    1000.000       1.435
    48     45.85   -1012.55818   -1012.49299    1000.000       2.036
    49     55.36   -1012.57224   -1012.49353    1000.000       1.713
    50     57.78   -1012.57576   -1012.49361    1000.000       0.469
    51     50.40   -1012.56522   -1012.49357    1000.000      -0.128
    52     38.51   -1012.54678   -1012.49202    1000.000      -0.808
    53     32.91   -1012.53855   -1012.49176    1000.000      -1.897
    54     38.31   -1012.54715   -1012.49268    1000.000      -1.759
    55     48.44   -1012.56185   -1012.49298    1000.000      -1.003
    56     55.83   -1012.57295   -1012.49357    1000.000      -0.585
    57     56.83   -1012.57395   -1012.49315    1000.000       0.478
    58     53.79   -1012.56850   -1012.49202    1000.000       1.865
    59     52.51   -1012.56729   -1012.49263    1000.000       1.884
    60     53.89   -1012.56959   -1012.49298    1000.000       1.623
    61     51.84   -1012.56710   -1012.49339    1000.000       1.417
    62     40.20   -1012.55068   -1012.49353    1000.000       0.062
    63     23.47   -1012.52509   -1012.49172    1000.000      -1.151
    64     14.53   -1012.51151   -1012.49085    1000.000      -1.278
    65     22.77   -1012.52383   -1012.49145    1000.000      -1.580
    66     46.03   -1012.55758   -1012.49213    1000.000      -1.671
    67     70.69   -1012.59487   -1012.49436    1000.000      -0.396
    68     78.66   -1012.60623   -1012.49439    1000.000       0.692
    69     66.51   -1012.58677   -1012.49221    1000.000       1.068
    70     48.47   -1012.56036   -1012.49145    1000.000       1.923
    71     39.17   -1012.54651   -1012.49082    1000.000       2.115
    72     42.26   -1012.55177   -1012.49168    1000.000       0.992
    73     49.76   -1012.56410   -1012.49334    1000.000       0.180
    74     49.61   -1012.56380   -1012.49327    1000.000      -0.540
    75     38.38   -1012.54736   -1012.49280    1000.000      -1.708
    76     25.93   -1012.52823   -1012.49136    1000.000      -1.995
    77     25.41   -1012.52665   -1012.49052    1000.000      -1.082
    78     40.21   -1012.54948   -1012.49230    1000.000      -0.705
    79     59.31   -1012.57758   -1012.49326    1000.000       0.186
    80     69.28   -1012.59213   -1012.49364    1000.000       1.674
    81     63.22   -1012.58358   -1012.49370    1000.000       1.874
    82     45.83   -1012.55705   -1012.49189    1000.000       1.555
    83     30.95   -1012.53510   -1012.49111    1000.000       1.430
    84     28.15   -1012.53158   -1012.49156    1000.000       0.371
    85     36.98   -1012.54436   -1012.49178    1000.000      -1.063
    86     50.22   -1012.56446   -1012.49306    1000.000      -1.320
    87     59.14   -1012.57743   -1012.49334    1000.000      -1.501
    88     59.84   -1012.57785   -1012.49277    1000.000      -1.771
    89     55.35   -1012.57135   -1012.49264    1000.000      -0.891
    90     49.89   -1012.56271   -1012.49178    1000.000       0.313
    91     45.56   -1012.55731   -1012.49253    1000.000       0.819
    92     39.73   -1012.54931   -1012.49282    1000.000       1.717
    93     32.15   -1012.53733   -1012.49161    1000.000       2.361
    94     27.08   -1012.53057   -1012.49206    1000.000       1.474
    95     27.72   -1012.53093   -1012.49151    1000.000       0.546
    96     36.29   -1012.54294   -1012.49135    1000.000       0.006
    97     50.64   -1012.56488   -1012.49288    1000.000      -1.207
    98     62.37   -1012.58164   -1012.49297    1000.000      -1.955
    99     65.17   -1012.58560   -1012.49294    1000.000      -1.498
   100     59.30   -1012.57703   -1012.49273    1000.000      -1.034
   101     50.70   -1012.56344   -1012.49136    1000.000      -0.533
   102     45.76   -1012.55682   -1012.49176    1000.000       0.948
   103     45.14   -1012.55585   -1012.49166    1000.000       1.751
   104     45.75   -1012.55737   -1012.49232    1000.000       1.561
   105     41.62   -1012.55213   -1012.49296    1000.000       1.711
   106     31.12   -1012.53555   -1012.49130    1000.000       1.181
   107     24.32   -1012.52524   -1012.49066    1000.000      -0.223
   108     30.02   -1012.53373   -1012.49105    1000.000      -0.830
   109     46.75   -1012.55787   -1012.49140    1000.000      -1.089
   110     64.68   -1012.58510   -1012.49314    1000.000      -1.793
   111     70.82   -1012.59434   -1012.49365    1000.000      -1.380
   112     58.93   -1012.57621   -1012.49243    1000.000      -0.218
   113     37.04   -1012.54389   -1012.49123    1000.000       0.367
   114     22.70   -1012.52190   -1012.48962    1000.000       1.029
   115     27.01   -1012.52869   -1012.49028    1000.000       1.981
   116     44.98   -1012.55581   -1012.49186    1000.000       1.665
   117     62.88   -1012.58207   -1012.49266    1000.000       0.811
   118     68.30   -1012.59049   -1012.49338    1000.000       0.415
   119     57.35   -1012.57371   -1012.49216    1000.000      -0.582
   120     42.20   -1012.55032   -1012.49032    1000.000      -1.619
   121     36.62   -1012.54279   -1012.49072    1000.000      -1.411
   122     40.18   -1012.54865   -1012.49153    1000.000      -1.047
   123     43.76   -1012.55410   -1012.49189    1000.000      -0.910
   124     41.50   -1012.55092   -1012.49191    1000.000       0.218
   125     33.68   -1012.53898   -1012.49109    1000.000       1.267
   126     27.25   -1012.52888   -1012.49013    1000.000       1.350
   127     32.87   -1012.53685   -1012.49012    1000.000       1.605
   128     50.88   -1012.56376   -1012.49143    1000.000       1.600
   129     67.27   -1012.58884   -1012.49320    1000.000       0.371
   130     70.68   -1012.59335   -1012.49285    1000.000      -0.570
   131     62.81   -1012.58098   -1012.49168    1000.000      -0.889
   132     51.49   -1012.56464   -1012.49143    1000.000      -1.714
   133     43.64   -1012.55285   -1012.49081    1000.000      -1.846
   134     42.09   -1012.55097   -1012.49112    1000.000      -0.760
   135     41.34   -1012.55111   -1012.49233    1000.000       0.046
   136     34.54   -1012.54045   -1012.49135    1000.000       0.606
   137     26.44   -1012.52782   -1012.49023    1000.000       1.835
   138     27.94   -1012.52987   -1012.49015    1000.000       2.093
   139     42.02   -1012.55052   -1012.49078    1000.000       1.295
   140     60.88   -1012.57898   -1012.49243    1000.000       0.886
   141     71.75   -1012.59513   -1012.49312    1000.000       0.188
   142     65.49   -1012.58591   -1012.49279    1000.000      -1.242
   143     45.64   -1012.55626   -1012.49137    1000.000      -1.513
   144     28.20   -1012.52958   -1012.48949    1000.000      -1.227
   145     27.87   -1012.52972   -1012.49009    1000.000      -1.374
   146     42.30   -1012.55169   -1012.49155    1000.000      -0.623
   147     58.01   -1012.57434   -1012.49185    1000.000       0.804
   148     64.18   -1012.58401   -1012.49276    1000.000       1.192
   149     57.41   -1012.57370   -1012.49207    1000.000       1.529
   150     44.32   -1012.55334   -1012.49032    1000.000       2.014
   151     37.83   -1012.54436   -1012.49057    1000.000       1.150
   152     42.51   -1012.55150   -1012.49106    1000.000      -0.056
   153     50.38   -1012.56369   -1012.49206    1000.000      -0.451
   154     51.14   -1012.56568   -1012.49297    1000.000      -1.189
   155     42.41   -1012.55193   -1012.49164    1000.000      -1.905
   156     30.73   -1012.53494   -1012.49124    1000.000      -1.160
   157     24.44   -1012.52506   -1012.49031    1000.000      -0.396
   158     31.68   -1012.53511   -1012.49008    1000.000       0.007
   159     50.89   -1012.56441   -1012.49205    1000.000       1.153
   160     68.84   -1012.59016   -1012.49228    1000.000       1.982
   161     75.75   -1012.59991   -1012.49221    1000.000       1.382
   162     71.01   -1012.59395   -1012.49300    1000.000       1.146
   163     56.06   -1012.57091   -1012.49121    1000.000       0.733
   164     39.56   -1012.54688   -1012.49063    1000.000      -0.706
   165     30.35   -1012.53433   -1012.49119    1000.000      -1.427
   166     27.72   -1012.52992   -1012.49051    1000.000      -1.278
   167     29.11   -1012.53304   -1012.49164    1000.000      -1.620
   168     33.47   -1012.53870   -1012.49111    1000.000      -1.216
   169     41.35   -1012.54966   -1012.49087    1000.000       0.327
   170     49.29   -1012.56230   -1012.49222    1000.000       1.083
   171     55.29   -1012.56981   -1012.49121    1000.000       1.442
   172     60.48   -1012.57806   -1012.49206    1000.000       2.201
   173     59.27   -1012.57753   -1012.49325    1000.000       1.676
   174     48.93   -1012.56080   -1012.49123    1000.000       0.312
   175     38.28   -1012.54562   -1012.49120    1000.000      -0.255
   176     34.26   -1012.53993   -1012.49123    1000.000      -1.036
   177     38.22   -1012.54505   -1012.49071    1000.000      -2.050
   178     48.40   -1012.56127   -1012.49246    1000.000      -1.681
   179     55.68   -1012.57153   -1012.49236    1000.000      -0.836
   180     53.95   -1012.56914   -1012.49244    1000.000      -0.404
   181     45.82   -1012.55729   -1012.49215    1000.000       0.631
   182     40.65   -1012.54783   -1012.49004    1000.000       1.928
   183     43.60   -1012.55353   -1012.49154    1000.000       1.754
   184     48.54   -1012.56164   -1012.49263    1000.000       1.499
   185     48.01   -1012.56021   -1012.49195    1000.000       1.362
   186     38.59   -1012.54783   -1012.49296    1000.000       0.049
   187     24.20   -1012.52548   -1012.49108    1000.000      -1.104
   188     19.30   -1012.51679   -1012.48935    1000.000      -1.163
   189     34.06   -1012.53999   -1012.49156    1000.000      -1.676
   190     59.90   -1012.57743   -1012.49227    1000.000      -1.704
   191     80.26   -1012.60796   -1012.49385    1000.000      -0.472
   192     81.07   -1012.61027   -1012.49501    1000.000       0.501
   193     61.18   -1012.57958   -1012.49260    1000.000       0.924
   194     35.69   -1012.54251   -1012.49176    1000.000       1.880
   195     21.83   -1012.52198   -1012.49094    1000.000       2.066
   196     26.41   -1012.52906   -1012.49151    1000.000       1.017
   197     38.33   -1012.54850   -1012.49400    1000.000       0.364
   198     43.61   -1012.55496   -1012.49296    1000.000      -0.249
   199     41.13   -1012.55097   -1012.49249    1000.000      -1.456
   200     37.29   -1012.54544   -1012.49242    1000.000      -1.696
   201     38.76   -1012.54572   -1012.49061    1000.000      -1.036
   202     49.49   -1012.56309   -1012.49272    1000.000      -0.944
   203     60.64   -1012.57993   -1012.49371    1000.000      -0.152
   204     60.81   -1012.57876   -1012.49231    1000.000       1.316
   205     50.77   -1012.56521   -1012.49303    1000.000       1.576
   206     39.45   -1012.54738   -1012.49129    1000.000       1.429
   207     35.56   -1012.54160   -1012.49104    1000.000       1.621
   208     39.97   -1012.54970   -1012.49288    1000.000       0.674
   209     47.09   -1012.55924   -1012.49228    1000.000      -0.635
   210     50.57   -1012.56515   -1012.49325    1000.000      -0.917
   211     47.43   -1012.56005   -1012.49261    1000.000      -1.425
   212     44.44   -1012.55401   -1012.49082    1000.000      -1.774
   213     47.89   -1012.56104   -1012.49295    1000.000      -0.892
   214     50.07   -1012.56362   -1012.49243    1000.000       0.197
   215     46.21   -1012.55772   -1012.49202    1000.000       0.610
   216     37.95   -1012.54696   -1012.49300    1000.000       1.406
   217     26.84   -1012.52862   -1012.49046    1000.000       2.133
   218     22.16   -1012.52200   -1012.49049    1000.000       1.356
   219     32.70   -1012.53754   -1012.49105    1000.000       0.708
   220     54.27   -1012.56842   -1012.49127    1000.000       0.278
   221     72.19   -1012.59661   -1012.49397    1000.000      -1.067
   222     75.82   -1012.60072   -1012.49291    1000.000      -1.722
   223     65.91   -1012.58576   -1012.49206    1000.000      -1.355
   224     47.53   -1012.56017   -1012.49259    1000.000      -1.268
   225     30.43   -1012.53292   -1012.48965    1000.000      -0.815
   226     27.22   -1012.52978   -1012.49108    1000.000       0.690
   227     33.75   -1012.54048   -1012.49250    1000.000       1.491
   228     39.36   -1012.54713   -1012.49117    1000.000       1.465
   229     42.45   -1012.55323   -1012.49288    1000.000       1.936
   230     41.26   -1012.55010   -1012.49144    1000.000       1.547
   231     38.28   -1012.54509   -1012.49066    1000.000      -0.014
   232     40.71   -1012.54933   -1012.49146    1000.000      -0.692
   233     50.86   -1012.56245   -1012.49014    1000.000      -1.063
   234     62.40   -1012.58105   -1012.49233    1000.000      -2.131
   235     64.23   -1012.58381   -1012.49249    1000.000      -1.732
   236     55.05   -1012.56794   -1012.48967    1000.000      -0.376
   237     42.03   -1012.55106   -1012.49131    1000.000       0.005
   238     31.13   -1012.53386   -1012.48960    1000.000       0.910
   239     31.70   -1012.53336   -1012.48829    1000.000       2.232
   240     45.63   -1012.55685   -1012.49197    1000.000       1.798
   241     57.65   -1012.57322   -1012.49126    1000.000       1.065
   242     59.58   -1012.57566   -1012.49095    1000.000       0.910
   243     53.84   -1012.56855   -1012.49200    1000.000      -0.374
   244     44.90   -1012.55369   -1012.48985    1000.000      -1.621
   245     38.82   -1012.54615   -1012.49095    1000.000      -1.327
   246     36.85   -1012.54318   -1012.49078    1000.000      -1.279
   247     38.32   -1012.54489   -1012.49040    1000.000      -1.325
   248     38.14   -1012.54600   -1012.49176    1000.000       0.085
   249     35.68   -1012.53993   -1012.48920    1000.000       1.305
   250     41.08   -1012.54777   -1012.48936    1000.000       1.269
   251     55.11   -1012.57013   -1012.49177    1000.000       1.880
   252     66.78   -1012.58523   -1012.49027    1000.000       2.024
   253     71.28   -1012.59320   -1012.49186    1000.000       0.487
   254     64.31   -1012.58352   -1012.49209    1000.000      -0.410
   255     46.95   -1012.55587   -1012.48912    1000.000      -0.718
   256     33.49   -1012.53759   -1012.48998    1000.000      -1.917
   257     32.59   -1012.53624   -1012.48991    1000.000      -1.949
   258     39.43   -1012.54649   -1012.49042    1000.000      -0.773
   259     42.92   -1012.55360   -1012.49258    1000.000      -0.373
   260     38.15   -1012.54455   -1012.49031    1000.000       0.385
   261     31.26   -1012.53421   -1012.48977    1000.000       1.998
   262     30.73   -1012.53344   -1012.48975    1000.000       2.105
   263     44.70   -1012.55249   -1012.48895    1000.000       1.520
   264     68.35   -1012.58947   -1012.49229    1000.000       1.398
   265     79.83   -1012.60660   -1012.49310    1000.000       0.256
   266     68.66   -1012.58880   -1012.49118    1000.000      -1.415
   267     45.29   -1012.55535   -1012.49095    1000.000      -1.680
   268     23.92   -1012.52240   -1012.48840    1000.000      -1.764
   269     20.03   -1012.51681   -1012.48833    1000.000      -2.050
   270     36.12   -1012.54189   -1012.49054    1000.000      -0.783
   271     56.34   -1012.57096   -1012.49085    1000.000       0.856
   272     63.40   -1012.58218   -1012.49205    1000.000       1.226
   273     55.47   -1012.56961   -1012.49074    1000.000       1.957
   274     44.54   -1012.55196   -1012.48863    1000.000       2.526
   275     39.08   -1012.54586   -1012.49029    1000.000       1.285
   276     38.71   -1012.54505   -1012.49000    1000.000       0.167
   277     41.12   -1012.54829   -1012.48982    1000.000      -0.292
   278     41.23   -1012.55021   -1012.49159    1000.000      -1.689
   279     36.91   -1012.54201   -1012.48953    1000.000      -2.315
   280     37.07   -1012.54201   -1012.48931    1000.000      -1.406
   281     45.28   -1012.55488   -1012.49050    1000.000      -0.887
   282     55.94   -1012.56940   -1012.48987    1000.000      -0.245
   283     63.68   -1012.58164   -1012.49110    1000.000       1.504
   284     64.21   -1012.58233   -1012.49103    1000.000       2.212
   285     57.01   -1012.57105   -1012.49000    1000.000       1.663
   286     47.55   -1012.55821   -1012.49060    1000.000       1.678
   287     40.77   -1012.54778   -1012.48982    1000.000       0.968
   288     36.59   -1012.54242   -1012.49039    1000.000      -0.832
   289     32.21   -1012.53668   -1012.49088    1000.000      -1.411
   290     28.59   -1012.52974   -1012.48910    1000.000      -1.416
   291     30.27   -1012.53329   -1012.49025    1000.000      -2.062
   292     36.47   -1012.54204   -1012.49018    1000.000      -1.324
   293     46.88   -1012.55550   -1012.48884    1000.000       0.407
   294     60.55   -1012.57730   -1012.49122    1000.000       0.891
   295     68.82   -1012.58897   -1012.49112    1000.000       1.606
   296     65.65   -1012.58380   -1012.49046    1000.000       2.574
   297     53.51   -1012.56725   -1012.49117    1000.000       1.687
   298     38.22   -1012.54350   -1012.48916    1000.000       0.370
   299     28.22   -1012.52908   -1012.48896    1000.000      -0.068
   300     29.87   -1012.53203   -1012.48956    1000.000      -1.237
   301     42.27   -1012.54951   -1012.48940    1000.000      -2.287
   302     56.25   -1012.57166   -1012.49168    1000.000      -1.674
   303     59.56   -1012.57555   -1012.49087    1000.000      -0.954
   304     51.84   -1012.56371   -1012.49000    1000.000      -0.586
   305     39.86   -1012.54700   -1012.49032    1000.000       0.958
   306     31.19   -1012.53213   -1012.48779    1000.000       2.211
   307     35.77   -1012.54021   -1012.48935    1000.000       1.828
   308     47.22   -1012.55862   -1012.49147    1000.000       1.737
   309     50.96   -1012.56272   -1012.49028    1000.000       1.406
   310     45.01   -1012.55478   -1012.49079    1000.000      -0.400
   311     37.32   -1012.54258   -1012.48951    1000.000      -1.328
   312     36.67   -1012.54064   -1012.48850    1000.000      -1.418
   313     47.12   -1012.55728   -1012.49029    1000.000      -2.057
   314     63.70   -1012.58095   -1012.49038    1000.000      -1.747
   315     74.03   -1012.59700   -1012.49174    1000.000      -0.204
   316     65.86   -1012.58539   -1012.49175    1000.000       0.596
   317     45.12   -1012.55314   -1012.48898    1000.000       1.177
   318     29.02   -1012.53070   -1012.48944    1000.000       2.267
   319     22.30   -1012.52093   -1012.48923    1000.000       2.084
   320     24.95   -1012.52438   -1012.48891    1000.000       0.864
   321     34.68   -1012.54020   -1012.49089    1000.000       0.450
   322     42.38   -1012.55033   -1012.49008    1000.000      -0.386
   323     46.70   -1012.55612   -1012.48972    1000.000      -1.767
   324     53.25   -1012.56561   -1012.48990    1000.000      -1.757
   325     61.82   -1012.57746   -1012.48957    1000.000      -1.226
   326     65.62   -1012.58467   -1012.49136    1000.000      -1.170
   327     59.34   -1012.57487   -1012.49051    1000.000       0.050
   328     46.58   -1012.55584   -1012.48961    1000.000       1.588
   329     33.50   -1012.53759   -1012.48997    1000.000       1.606
   330     28.37   -1012.52860   -1012.48826    1000.000       1.625
   331     38.85   -1012.54496   -1012.48973    1000.000       1.735
   332     53.87   -1012.56848   -1012.49188    1000.000       0.489
   333     57.33   -1012.57254   -1012.49102    1000.000      -0.830
   334     49.88   -1012.56128   -1012.49036    1000.000      -1.025
   335     40.48   -1012.54709   -1012.48954    1000.000      -1.619
   336     35.86   -1012.53988   -1012.48890    1000.000      -1.951
   337     39.93   -1012.54606   -1012.48928    1000.000      -0.698
   338     49.71   -1012.56048   -1012.48980    1000.000       0.277
   339     54.48   -1012.56864   -1012.49118    1000.000       0.602
   340     46.05   -1012.55555   -1012.49007    1000.000       1.680
   341     34.06   -1012.53639   -1012.48797    1000.000       2.163
   342     32.69   -1012.53539   -1012.48891    1000.000       1.096
   343     42.99   -1012.55039   -1012.48927    1000.000       0.645
   344     59.96   -1012.57509   -1012.48984    1000.000       0.163
   345     73.89   -1012.59698   -1012.49192    1000.000      -1.300
   346     72.88   -1012.59506   -1012.49144    1000.000      -1.738
   347     56.59   -1012.57051   -1012.49005    1000.000      -1.315
   348     37.22   -1012.54232   -1012.48940    1000.000      -1.247
   349     25.87   -1012.52565   -1012.48887    1000.000      -0.621
   350     23.96   -1012.52353   -1012.48947    1000.000       0.981
   351     29.30   -1012.53104   -1012.48938    1000.000       1.557
   352     39.26   -1012.54591   -1012.49009    1000.000       1.630
   353     47.48   -1012.55798   -1012.49047    1000.000       2.074
   354     51.85   -1012.56303   -1012.48931    1000.000       1.305
   355     57.41   -1012.57177   -1012.49015    1000.000      -0.151
   356     61.66   -1012.57800   -1012.49033    1000.000      -0.570
   357     59.99   -1012.57495   -1012.48966    1000.000      -1.194
   358     55.31   -1012.56852   -1012.48987    1000.000      -2.094
   359     50.35   -1012.56136   -1012.48976    1000.000      -1.574
   360     44.32   -1012.55267   -1012.48965    1000.000      -0.658
   361     38.34   -1012.54396   -1012.48945    1000.000      -0.226
   362     36.68   -1012.54150   -1012.48935    1000.000       1.080
   363     38.22   -1012.54405   -1012.48972    1000.000       2.317
   364     41.25   -1012.54806   -1012.48941    1000.000       1.962
   365     47.25   -1012.55698   -1012.48980    1000.000       1.541
   366     53.07   -1012.56590   -1012.49044    1000.000       1.026
   367     53.33   -1012.56584   -1012.49002    1000.000      -0.557
   368     50.50   -1012.56165   -1012.48985    1000.000      -1.589
   369     47.47   -1012.55717   -1012.48967    1000.000      -1.544
   370     42.38   -1012.54975   -1012.48949    1000.000      -1.752
   371     36.21   -1012.54090   -1012.48942    1000.000      -1.437
   372     33.84   -1012.53643   -1012.48831    1000.000       0.038
   373     38.77   -1012.54408   -1012.48896    1000.000       0.984
   374     49.30   -1012.55940   -1012.48931    1000.000       1.386
   375     63.66   -1012.57963   -1012.48912    1000.000       2.162
   376     74.57   -1012.59756   -1012.49154    1000.000       1.913
   377     69.34   -1012.58985   -1012.49126    1000.000       0.672
   378     49.55   -1012.55994   -1012.48949    1000.000      -0.060
   379     28.40   -1012.52958   -1012.48920    1000.000      -0.815
   380     17.35   -1012.51267   -1012.48800    1000.000      -1.871
   381     22.27   -1012.52047   -1012.48881    1000.000      -1.845
   382     37.96   -1012.54401   -1012.49004    1000.000      -1.005
   383     51.09   -1012.56306   -1012.49042    1000.000      -0.569
   384     52.44   -1012.56516   -1012.49060    1000.000       0.413
   385     46.15   -1012.55389   -1012.48827    1000.000       1.882
   386     45.16   -1012.55219   -1012.48797    1000.000       2.030
   387     53.69   -1012.56586   -1012.48952    1000.000       1.625
   388     64.28   -1012.58034   -1012.48894    1000.000       1.462
   389     68.27   -1012.58781   -1012.49074    1000.000       0.073
   390     57.13   -1012.57143   -1012.49020    1000.000      -1.389
   391     37.14   -1012.54004   -1012.48723    1000.000      -1.518
   392     24.92   -1012.52338   -1012.48794    1000.000      -1.779
   393     27.11   -1012.52642   -1012.48787    1000.000      -1.799
   394     39.00   -1012.54426   -1012.48881    1000.000      -0.493
   395     50.19   -1012.56189   -1012.49053    1000.000       0.701
   396     53.75   -1012.56586   -1012.48944    1000.000       1.225
   397     51.20   -1012.56234   -1012.48954    1000.000       2.056
   398     46.95   -1012.55572   -1012.48897    1000.000       2.330
   399     46.50   -1012.55460   -1012.48848    1000.000       1.263
   400     47.82   -1012.55856   -1012.49057    1000.000       0.334
   401     43.21   -1012.55057   -1012.48913    1000.000      -0.460
   402     36.36   -1012.53982   -1012.48813    1000.000      -1.761
   403     35.68   -1012.53959   -1012.48885    1000.000      -2.118
   404     42.97   -1012.54835   -1012.48726    1000.000      -1.427
   405     56.81   -1012.56976   -1012.48899    1000.000      -1.043
   406     68.85   -1012.58826   -1012.49036    1000.000      -0.123
   407     67.81   -1012.58541   -1012.48900    1000.000       1.471
   408     53.01   -1012.56476   -1012.48939    1000.000       1.963
   409     35.90   -1012.53861   -1012.48757    1000.000       1.773
   410     28.65   -1012.52806   -1012.48733    1000.000       1.692
   411     31.13   -1012.53335   -1012.48909    1000.000       0.734
   412     37.23   -1012.54119   -1012.48825    1000.000      -0.741
   413     43.15   -1012.55122   -1012.48988    1000.000      -1.167
   414     41.97   -1012.54905   -1012.48938    1000.000      -1.429
   415     38.14   -1012.54158   -1012.48735    1000.000      -1.826
   416     42.60   -1012.54939   -1012.48882    1000.000      -1.119
   417     54.84   -1012.56625   -1012.48829    1000.000      -0.015
   418     67.35   -1012.58504   -1012.48929    1000.000       0.475
   419     72.00   -1012.59297   -1012.49059    1000.000       1.362
   420     64.43   -1012.58029   -1012.48869    1000.000       2.267
   421     47.14   -1012.55580   -1012.48878    1000.000       1.472
   422     29.72   -1012.53019   -1012.48793    1000.000       0.721
   423     22.96   -1012.51866   -1012.48602    1000.000       0.306
   424     29.55   -1012.53043   -1012.48842    1000.000      -0.975
   425     42.18   -1012.54837   -1012.48839    1000.000      -1.788
   426     55.45   -1012.56707   -1012.48823    1000.000      -1.384
   427     62.50   -1012.57955   -1012.49068    1000.000      -1.156
   428     56.73   -1012.56937   -1012.48871    1000.000      -0.699
   429     46.09   -1012.55365   -1012.48812    1000.000       0.795
   430     39.06   -1012.54395   -1012.48842    1000.000       1.614
   431     38.11   -1012.54175   -1012.48758    1000.000       1.624
   432     42.54   -1012.54934   -1012.48885    1000.000       1.761
   433     48.91   -1012.55850   -1012.48895    1000.000       1.273
   434     52.15   -1012.56278   -1012.48862    1000.000      -0.110
   435     51.94   -1012.56302   -1012.48916    1000.000      -0.849
   436     52.07   -1012.56143   -1012.48740    1000.000      -1.144
   437     55.67   -1012.56761   -1012.48845    1000.000      -1.836
   438     57.89   -1012.57165   -1012.48934    1000.000      -1.516
   439     53.83   -1012.56393   -1012.48740    1000.000      -0.356
   440     46.77   -1012.55538   -1012.48889    1000.000       0.219
   441     38.04   -1012.54214   -1012.48805    1000.000       0.977
   442     31.87   -1012.53165   -1012.48634    1000.000       2.098
   443     33.47   -1012.53583   -1012.48825    1000.000       1.928
   444     39.20   -1012.54427   -1012.48853    1000.000       1.108
   445     42.23   -1012.54815   -1012.48811    1000.000       0.688
   446     43.34   -1012.55005   -1012.48843    1000.000      -0.420
   447     48.76   -1012.55649   -1012.48717    1000.000      -1.554
   448     60.58   -1012.57444   -1012.48832    1000.000      -1.590
   449     71.65   -1012.59141   -1012.48954    1000.000      -1.431
   450     73.07   -1012.59311   -1012.48922    1000.000      -1.233
   451     61.31   -1012.57718   -1012.49001    1000.000      -0.165
   452     38.45   -1012.54243   -1012.48775    1000.000       1.013
   453     20.02   -1012.51430   -1012.48583    1000.000       1.285
   454     19.98   -1012.51596   -1012.48755    1000.000       1.735
   455     34.37   -1012.53596   -1012.48708    1000.000       1.885
   456     52.21   -1012.56271   -1012.48849    1000.000       0.811
   457     61.85   -1012.57787   -1012.48993    1000.000      -0.187
   458     57.02   -1012.56861   -1012.48753    1000.000      -0.615
   459     45.09   -1012.55180   -1012.48769    1000.000      -1.650
   460     38.58   -1012.54192   -1012.48707    1000.000      -1.914
   461     43.15   -1012.54810   -1012.48675    1000.000      -1.019
   462     51.95   -1012.56390   -1012.49004    1000.000      -0.482
   463     53.27   -1012.56425   -1012.48851    1000.000       0.279
   464     47.97   -1012.55612   -1012.48792    1000.000       1.574
   465     41.07   -1012.54724   -1012.48885    1000.000       1.954
   466     39.08   -1012.54196   -1012.48639    1000.000       1.503
   467     48.20   -1012.55686   -1012.48833    1000.000       1.252
   468     59.91   -1012.57511   -1012.48992    1000.000       0.343
   469     62.61   -1012.57755   -1012.48853    1000.000      -1.015
   470     56.01   -1012.56946   -1012.48982    1000.000      -1.530
   471     43.41   -1012.54916   -1012.48743    1000.000      -1.382
   472     32.64   -1012.53316   -1012.48676    1000.000      -1.587
   473     28.62   -1012.52923   -1012.48853    1000.000      -0.734
   474     29.28   -1012.52758   -1012.48595    1000.000       0.749
   475     34.41   -1012.53698   -1012.48806    1000.000       1.112
   476     40.69   -1012.54619   -1012.48834    1000.000       1.659
   477     50.28   -1012.55725   -1012.48576    1000.000       2.258
   478     64.27   -1012.58111   -1012.48973    1000.000       1.241
   479     71.98   -1012.59166   -1012.48932    1000.000       0.126
   480     68.75   -1012.58605   -1012.48830    1000.000      -0.327
   481     55.98   -1012.57016   -1012.49057    1000.000      -1.451
   482     37.81   -1012.54077   -1012.48701    1000.000      -2.142
   483     26.76   -1012.52565   -1012.48761    1000.000      -1.497
   484     27.86   -1012.52818   -1012.48857    1000.000      -0.862
   485     36.94   -1012.53966   -1012.48714    1000.000      -0.225
   486     47.72   -1012.55830   -1012.49045    1000.000       1.191
   487     50.64   -1012.56028   -1012.48827    1000.000       2.256
   488     48.20   -1012.55606   -1012.48752    1000.000       1.895
   489     45.38   -1012.55438   -1012.48986    1000.000       1.563
   490     43.11   -1012.54769   -1012.48639    1000.000       1.093
   491     46.30   -1012.55440   -1012.48857    1000.000      -0.505
   492     50.83   -1012.56196   -1012.48969    1000.000      -1.465
   493     51.53   -1012.55984   -1012.48658    1000.000      -1.475
   494     49.94   -1012.56095   -1012.48994    1000.000      -2.057
   495     44.72   -1012.55159   -1012.48801    1000.000      -1.713
   496     40.92   -1012.54512   -1012.48693    1000.000      -0.096
   497     42.35   -1012.54985   -1012.48963    1000.000       0.823
   498     47.98   -1012.55489   -1012.48667    1000.000       1.480
   499     58.08   -1012.57160   -1012.48903    1000.000       2.410
   500     63.87   -1012.58139   -1012.49058    1000.000       2.062
   501     58.59   -1012.57116   -1012.48786    1000.000       0.722
   502     45.33   -1012.55466   -1012.49021    1000.000       0.020
   503     27.93   -1012.52694   -1012.48723    1000.000      -0.851
   504     19.62   -1012.51372   -1012.48582    1000.000      -2.085
   505     26.75   -1012.52710   -1012.48907    1000.000      -1.963
   506     40.70   -1012.54444   -1012.48657    1000.000      -1.039
   507     55.44   -1012.56769   -1012.48887    1000.000      -0.709
   508     63.13   -1012.57944   -1012.48968    1000.000       0.498
   509     62.61   -1012.57485   -1012.48584    1000.000       2.005
   510     60.68   -1012.57525   -1012.48897    1000.000       1.836
   511     58.77   -1012.57148   -1012.48792    1000.000       1.682
   512     56.29   -1012.56683   -1012.48680    1000.000       1.547
   513     49.25   -1012.56046   -1012.49044    1000.000      -0.063
   514     36.29   -1012.53841   -1012.48681    1000.000      -1.247
   515     28.95   -1012.52805   -1012.48688    1000.000      -1.347
   516     31.42   -1012.53391   -1012.48924    1000.000      -1.840
   517     38.98   -1012.54229   -1012.48686    1000.000      -1.730
   518     47.74   -1012.55793   -1012.49006    1000.000      -0.340
   519     49.67   -1012.55946   -1012.48884    1000.000       0.756
   520     47.49   -1012.55408   -1012.48655    1000.000       1.128
   521     49.96   -1012.56051   -1012.48948    1000.000       2.115
   522     55.33   -1012.56548   -1012.48681    1000.000       2.254
   523     60.37   -1012.57426   -1012.48842    1000.000       0.872
   524     57.18   -1012.57138   -1012.49008    1000.000       0.265
   525     43.61   -1012.54739   -1012.48538    1000.000      -0.361
   526     31.85   -1012.53276   -1012.48748    1000.000      -1.833
   527     29.97   -1012.52889   -1012.48628    1000.000      -1.934
   528     42.41   -1012.54502   -1012.48472    1000.000      -1.168
   529     62.20   -1012.57854   -1012.49011    1000.000      -1.140
   530     70.75   -1012.58880   -1012.48821    1000.000      -0.142
   531     63.35   -1012.57783   -1012.48775    1000.000       1.542
   532     46.41   -1012.55531   -1012.48932    1000.000       1.846
   533     29.22   -1012.52717   -1012.48563    1000.000       1.777
   534     23.89   -1012.52171   -1012.48774    1000.000       1.881
   535     29.58   -1012.53050   -1012.48845    1000.000       0.697
   536     40.60   -1012.54521   -1012.48748    1000.000      -0.720
   537     50.17   -1012.56184   -1012.49050    1000.000      -1.143
   538     52.27   -1012.56203   -1012.48772    1000.000      -1.629
   539     53.38   -1012.56368   -1012.48779    1000.000      -2.141
   540     56.13   -1012.56914   -1012.48933    1000.000      -1.069
   541     58.28   -1012.56928   -1012.48642    1000.000       0.137
   542     60.87   -1012.57555   -1012.48901    1000.000       0.561
   543     58.00   -1012.57114   -1012.48867    1000.000       1.645
   544     48.34   -1012.55501   -1012.48628    1000.000       2.295
   545     37.24   -1012.54151   -1012.48857    1000.000       1.356
   546     29.03   -1012.52798   -1012.48671    1000.000       0.745
   547     27.21   -1012.52489   -1012.48621    1000.000       0.247
   548     31.81   -1012.53383   -1012.48860    1000.000      -1.217
   549     39.86   -1012.54326   -1012.48658    1000.000      -1.785
   550     50.42   -1012.55996   -1012.48828    1000.000      -1.296
   551     58.11   -1012.57181   -1012.48918    1000.000      -1.261
   552     60.85   -1012.57393   -1012.48741    1000.000      -0.722
   553     60.18   -1012.57528   -1012.48971    1000.000       0.737
   554     51.88   -1012.56209   -1012.48832    1000.000       1.399
   555     40.73   -1012.54534   -1012.48743    1000.000       1.445
   556     33.85   -1012.53654   -1012.48841    1000.000       1.842
   557     33.71   -1012.53447   -1012.48654    1000.000       1.288
   558     41.87   -1012.54754   -1012.48801    1000.000      -0.119
   559     53.72   -1012.56526   -1012.48888    1000.000      -0.699
   560     61.61   -1012.57537   -1012.48777    1000.000      -1.220
   561     60.45   -1012.57536   -1012.48942    1000.000      -1.954
   562     49.83   -1012.55854   -1012.48769    1000.000      -1.406
   563     37.38   -1012.53934   -1012.48619    1000.000      -0.325
   564     29.93   -1012.53035   -1012.48780    1000.000       0.150
   565     28.67   -1012.52693   -1012.48617    1000.000       1.110
   566     35.26   -1012.53724   -1012.48712    1000.000       2.094
   567     44.95   -1012.55269   -1012.48878    1000.000       1.738
   568     51.24   -1012.56054   -1012.48769    1000.000       1.174
   569     53.66   -1012.56495   -1012.48865    1000.000       0.722
   570     53.39   -1012.56395   -1012.48804    1000.000      -0.509
   571     54.24   -1012.56459   -1012.48747    1000.000      -1.580
   572     58.22   -1012.57166   -1012.48889    1000.000      -1.623
   573     60.48   -1012.57399   -1012.48800    1000.000      -1.444
   574     57.26   -1012.57043   -1012.48902    1000.000      -1.261
   575     45.49   -1012.55358   -1012.48891    1000.000       0.047
   576     28.52   -1012.52670   -1012.48615    1000.000       1.167
   577     18.12   -1012.51258   -1012.48682    1000.000       1.377
   578     22.02   -1012.51774   -1012.48642    1000.000       1.930
   579     38.74   -1012.54150   -1012.48641    1000.000       1.919
   580     57.81   -1012.57145   -1012.48926    1000.000       0.648
   581     66.17   -1012.58259   -1012.48851    1000.000      -0.192
   582     61.13   -1012.57440   -1012.48748    1000.000      -0.820
   583     50.01   -1012.55889   -1012.48779    1000.000      -1.722
   584     42.03   -1012.54631   -1012.48655    1000.000      -1.806
   585     42.01   -1012.54704   -1012.48730    1000.000      -1.042
   586     45.23   -1012.55264   -1012.48833    1000.000      -0.478
   587     46.19   -1012.55337   -1012.48770    1000.000       0.272
   588     44.80   -1012.55161   -1012.48791    1000.000       1.513
   589     44.31   -1012.55044   -1012.48744    1000.000       1.858
   590     49.02   -1012.55751   -1012.48781    1000.000       1.511
   591     55.71   -1012.56833   -1012.48911    1000.000       1.291
   592     55.46   -1012.56766   -1012.48880    1000.000       0.356
   593     46.28   -1012.55441   -1012.48861    1000.000      -0.966
   594     34.64   -1012.53683   -1012.48758    1000.000      -1.396
   595     30.21   -1012.52958   -1012.48663    1000.000      -1.485
   596     36.30   -1012.53948   -1012.48786    1000.000      -1.678
   597     46.31   -1012.55422   -1012.48837    1000.000      -0.747
   598     50.32   -1012.55987   -1012.48832    1000.000       0.543
   599     46.49   -1012.55459   -1012.48849    1000.000       1.002
   600     41.95   -1012.54655   -1012.48691    1000.000       1.639
   601     47.16   -1012.55406   -1012.48701    1000.000       2.005
   602     61.67   -1012.57637   -1012.48869    1000.000       1.134
   603     73.57   -1012.59422   -1012.48962    1000.000       0.139
   604     70.97   -1012.59068   -1012.48977    1000.000      -0.385
   605     52.08   -1012.56317   -1012.48912    1000.000      -1.389
   606     28.68   -1012.52843   -1012.48765    1000.000      -1.876
   607     15.53   -1012.50912   -1012.48704    1000.000      -1.225
   608     19.27   -1012.51464   -1012.48724    1000.000      -0.691
   609     35.26   -1012.53857   -1012.48843    1000.000      -0.110
   610     52.27   -1012.56336   -1012.48904    1000.000       1.205
   611     61.14   -1012.57552   -1012.48859    1000.000       1.888
   612     61.12   -1012.57541   -1012.48851    1000.000       1.604
   613     56.35   -1012.56777   -1012.48766    1000.000       1.565
   614     51.42   -1012.55995   -1012.48684    1000.000       0.903
   615     49.19   -1012.55783   -1012.48789    1000.000      -0.574
   616     47.83   -1012.55575   -1012.48775    1000.000      -1.209
   617     46.04   -1012.55297   -1012.48750    1000.000      -1.337
   618     44.51   -1012.55147   -1012.48818    1000.000      -1.829
   619     43.40   -1012.54954   -1012.48783    1000.000      -1.287
   620     43.51   -1012.54945   -1012.48758    1000.000       0.014
   621     45.53   -1012.55269   -1012.48795    1000.000       0.700
   622     49.15   -1012.55781   -1012.48792    1000.000       1.388
   623     52.14   -1012.56227   -1012.48813    1000.000       2.239
   624     51.58   -1012.56145   -1012.48811    1000.000       1.818
   625     47.41   -1012.55583   -1012.48843    1000.000       0.785
   626     41.52   -1012.54707   -1012.48804    1000.000       0.249
   627     35.97   -1012.53839   -1012.48725    1000.000      -0.821
   628     34.61   -1012.53669   -1012.48749    1000.000      -1.925
   629     38.26   -1012.54166   -1012.48725    1000.000      -1.645
   630     45.53   -1012.55192   -1012.48718    1000.000      -1.179
   631     54.17   -1012.56493   -1012.48791    1000.000      -0.883
   632     61.53   -1012.57499   -1012.48751    1000.000       0.398
   633     66.30   -1012.58249   -1012.48823    1000.000       1.544
   634     65.01   -1012.58097   -1012.48853    1000.000       1.611
   635     57.68   -1012.57069   -1012.48868    1000.000       1.736
   636     43.40   -1012.55037   -1012.48867    1000.000       1.455
   637     26.19   -1012.52422   -1012.48698    1000.000       0.148
   638     17.91   -1012.51206   -1012.48660    1000.000      -0.891
   639     24.77   -1012.52254   -1012.48733    1000.000      -1.228
   640     40.88   -1012.54571   -1012.48759    1000.000      -1.697
   641     55.71   -1012.56821   -1012.48899    1000.000      -1.683
   642     60.71   -1012.57473   -1012.48842    1000.000      -0.495
   643     54.84   -1012.56506   -1012.48708    1000.000       0.307
   644     46.64   -1012.55301   -1012.48669    1000.000       0.870
   645     45.39   -1012.55025   -1012.48571    1000.000       1.929
   646     52.92   -1012.56253   -1012.48729    1000.000       1.920
   647     59.90   -1012.57397   -1012.48880    1000.000       1.057
   648     56.04   -1012.56736   -1012.48768    1000.000       0.527
   649     42.59   -1012.54806   -1012.48750    1000.000      -0.290
   650     29.01   -1012.52772   -1012.48648    1000.000      -1.494
   651     27.45   -1012.52491   -1012.48588    1000.000      -1.637
   652     40.62   -1012.54537   -1012.48761    1000.000      -1.237
   653     57.06   -1012.56946   -1012.48834    1000.000      -1.097
   654     64.40   -1012.58085   -1012.48928    1000.000      -0.061
   655     57.26   -1012.56983   -1012.48842    1000.000       1.286
   656     41.76   -1012.54597   -1012.48659    1000.000       1.593
   657     29.63   -1012.52860   -1012.48648    1000.000       1.578
   658     27.95   -1012.52554   -1012.48581    1000.000       1.729
   659     36.61   -1012.53872   -1012.48668    1000.000       0.756
   660     46.88   -1012.55403   -1012.48737    1000.000      -0.488
   661     52.97   -1012.56213   -1012.48682    1000.000      -0.884
   662     56.58   -1012.56715   -1012.48670    1000.000      -1.493
   663     60.66   -1012.57330   -1012.48706    1000.000      -2.064
   664     63.11   -1012.57726   -1012.48753    1000.000      -1.169
   665     59.78   -1012.57288   -1012.48788    1000.000      -0.170
   666     49.51   -1012.55828   -1012.48788    1000.000       0.356
   667     34.58   -1012.53647   -1012.48731    1000.000       1.480
   668     22.55   -1012.51807   -1012.48601    1000.000       2.234
   669     22.97   -1012.51892   -1012.48626    1000.000       1.558
   670     35.67   -1012.53813   -1012.48742    1000.000       1.029
   671     49.43   -1012.55804   -1012.48777    1000.000       0.514
   672     55.80   -1012.56773   -1012.48839    1000.000      -0.845
   673     53.36   -1012.56301   -1012.48715    1000.000      -1.682
   674     47.77   -1012.55359   -1012.48566    1000.000      -1.368
   675     47.25   -1012.55264   -1012.48546    1000.000      -1.420
   676     54.64   -1012.56417   -1012.48648    1000.000      -0.956
   677     61.53   -1012.57503   -1012.48754    1000.000       0.517
   678     57.67   -1012.56930   -1012.48730    1000.000       1.190
   679     44.76   -1012.55067   -1012.48703    1000.000       1.285
   680     31.55   -1012.53051   -1012.48565    1000.000       1.886
   681     27.08   -1012.52367   -1012.48517    1000.000       1.464
   682     36.57   -1012.53870   -1012.48671    1000.000       0.163
   683     53.82   -1012.56383   -1012.48730    1000.000      -0.423
   684     65.11   -1012.58141   -1012.48884    1000.000      -0.910
   685     60.64   -1012.57463   -1012.48841    1000.000      -1.843
   686     45.68   -1012.55123   -1012.48629    1000.000      -1.495
   687     32.45   -1012.53269   -1012.48655    1000.000      -0.645
   688     27.14   -1012.52406   -1012.48547    1000.000      -0.210
   689     33.36   -1012.53327   -1012.48584    1000.000       0.772
   690     47.08   -1012.55464   -1012.48770    1000.000       1.905
   691     57.47   -1012.56856   -1012.48684    1000.000       1.720
   692     60.62   -1012.57383   -1012.48764    1000.000       1.217
   693     59.10   -1012.57090   -1012.48686    1000.000       0.973
   694     56.00   -1012.56589   -1012.48626    1000.000      -0.259
   695     53.44   -1012.56354   -1012.48755    1000.000      -1.438
   696     51.09   -1012.55883   -1012.48619    1000.000      -1.294
   697     48.32   -1012.55621   -1012.48750    1000.000      -1.398
   698     41.89   -1012.54733   -1012.48777    1000.000      -1.467
   699     33.16   -1012.53244   -1012.48529    1000.000      -0.114
   700     30.00   -1012.53027   -1012.48762    1000.000       0.925
   701     31.38   -1012.53125   -1012.48663    1000.000       1.236
   702     38.25   -1012.54057   -1012.48619    1000.000       2.009
   703     49.62   -1012.55934   -1012.48879    1000.000       2.015
   704     58.38   -1012.57034   -1012.48734    1000.000       0.808
   705     62.16   -1012.57659   -1012.48821    1000.000      -0.064
   706     61.25   -1012.57482   -1012.48774    1000.000      -0.680
   707     58.65   -1012.56990   -1012.48651    1000.000      -1.826
   708     55.13   -1012.56725   -1012.48886    1000.000      -2.050
   709     46.74   -1012.55278   -1012.48633    1000.000      -1.121
   710     37.63   -1012.54009   -1012.48659    1000.000      -0.643
   711     31.03   -1012.53221   -1012.48809    1000.000       0.196
   712     29.13   -1012.52552   -1012.48410    1000.000       1.770
   713     40.21   -1012.54407   -1012.48690    1000.000       2.028
   714     57.27   -1012.57004   -1012.48862    1000.000       1.671
   715     66.77   -1012.58186   -1012.48693    1000.000       1.563
   716     62.39   -1012.57867   -1012.48996    1000.000       0.442
   717     44.81   -1012.55088   -1012.48717    1000.000      -0.991
   718     28.23   -1012.52578   -1012.48564    1000.000      -1.420
   719     25.69   -1012.52404   -1012.48752    1000.000      -1.605
   720     38.27   -1012.54039   -1012.48597    1000.000      -1.818
   721     57.30   -1012.57127   -1012.48980    1000.000      -0.937
   722     64.16   -1012.58054   -1012.48932    1000.000       0.418
   723     56.05   -1012.56579   -1012.48609    1000.000       1.004
   724     47.26   -1012.55552   -1012.48833    1000.000       1.569
   725     44.18   -1012.54716   -1012.48434    1000.000       2.244
   726     52.46   -1012.56045   -1012.48586    1000.000       1.405
   727     63.12   -1012.57931   -1012.48956    1000.000       0.327
   728     59.68   -1012.57103   -1012.48617    1000.000      -0.070
   729     42.47   -1012.54853   -1012.48815    1000.000      -1.245
   730     22.52   -1012.51804   -1012.48603    1000.000      -2.013
   731     15.88   -1012.50654   -1012.48396    1000.000      -1.394
   732     26.84   -1012.52661   -1012.48845    1000.000      -0.874
   733     43.99   -1012.54916   -1012.48662    1000.000      -0.282
   734     60.21   -1012.57392   -1012.48832    1000.000       1.017
   735     66.06   -1012.58396   -1012.49003    1000.000       1.868
   736     61.33   -1012.57304   -1012.48585    1000.000       1.629
   737     58.40   -1012.57167   -1012.48864    1000.000       1.396
   738     54.71   -1012.56524   -1012.48745    1000.000       0.987
   739     47.92   -1012.55456   -1012.48643    1000.000      -0.501
   740     41.37   -1012.54765   -1012.48883    1000.000      -1.269
   741     33.90   -1012.53307   -1012.48486    1000.000      -1.198
   742     31.30   -1012.53125   -1012.48674    1000.000      -1.698
   743     35.37   -1012.53736   -1012.48707    1000.000      -1.447
   744     46.35   -1012.55074   -1012.48484    1000.000       0.001
   745     56.88   -1012.57087   -1012.49000    1000.000       0.611
   746     55.52   -1012.56693   -1012.48799    1000.000       1.245
   747     47.28   -1012.55396   -1012.48674    1000.000       2.201
   748     39.98   -1012.54621   -1012.48937    1000.000       1.870
   749     34.91   -1012.53561   -1012.48599    1000.000       0.708
   750     39.37   -1012.54416   -1012.48818    1000.000       0.141
   751     48.16   -1012.55737   -1012.48890    1000.000      -0.695
   752     52.38   -1012.56227   -1012.48780    1000.000      -1.862
   753     51.39   -1012.56237   -1012.48930    1000.000      -1.739
   754     47.06   -1012.55283   -1012.48593    1000.000      -0.916
   755     47.00   -1012.55348   -1012.48666    1000.000      -0.758
   756     51.54   -1012.56127   -1012.48799    1000.000       0.221
   757     57.93   -1012.56781   -1012.48545    1000.000       1.589
   758     61.72   -1012.57750   -1012.48975    1000.000       1.572
   759     51.45   -1012.56198   -1012.48883    1000.000       1.447
   760     31.75   -1012.53033   -1012.48519    1000.000       1.613
   761     18.38   -1012.51413   -1012.48799    1000.000       0.433
   762     16.91   -1012.50994   -1012.48590    1000.000      -0.751
   763     30.24   -1012.52980   -1012.48680    1000.000      -0.874
   764     52.48   -1012.56432   -1012.48971    1000.000      -1.438
   765     69.59   -1012.58746   -1012.48852    1000.000      -1.830
   766     72.73   -1012.59388   -1012.49046    1000.000      -0.787
   767     61.12   -1012.57490   -1012.48800    1000.000       0.200
   768     48.37   -1012.55544   -1012.48667    1000.000       0.611
   769     42.40   -1012.54891   -1012.48863    1000.000       1.547
   770     40.64   -1012.54331   -1012.48554    1000.000       2.106
   771     45.46   -1012.55218   -1012.48754    1000.000       1.187
   772     48.15   -1012.55755   -1012.48910    1000.000       0.533
   773     41.83   -1012.54460   -1012.48512    1000.000       0.167
   774     36.57   -1012.53944   -1012.48744    1000.000      -1.269
   775     37.95   -1012.54082   -1012.48687    1000.000      -1.711
   776     44.99   -1012.55041   -1012.48645    1000.000      -1.060
   777     52.58   -1012.56445   -1012.48970    1000.000      -1.016
   778     54.44   -1012.56524   -1012.48784    1000.000      -0.372
   779     50.10   -1012.55979   -1012.48856    1000.000       0.998
   780     42.08   -1012.54838   -1012.48855    1000.000       1.431
   781     39.45   -1012.54224   -1012.48614    1000.000       1.361
   782     46.46   -1012.55532   -1012.48926    1000.000       1.632
   783     51.57   -1012.56225   -1012.48892    1000.000       0.997
   784     51.28   -1012.56001   -1012.48710    1000.000      -0.384
   785     50.51   -1012.56074   -1012.48893    1000.000      -0.760
   786     48.87   -1012.55587   -1012.48638    1000.000      -1.072
   787     51.91   -1012.56055   -1012.48675    1000.000      -1.849
   788     59.54   -1012.57307   -1012.48841    1000.000      -1.138
   789     60.93   -1012.57377   -1012.48715    1000.000      -0.027
   790     48.72   -1012.55801   -1012.48874    1000.000       0.155
   791     28.02   -1012.52653   -1012.48669    1000.000       1.085
   792     15.87   -1012.50711   -1012.48454    1000.000       2.059
   793     21.50   -1012.51817   -1012.48761    1000.000       1.435
   794     40.59   -1012.54517   -1012.48747    1000.000       0.888
   795     63.27   -1012.57890   -1012.48895    1000.000       0.758
   796     73.29   -1012.59580   -1012.49160    1000.000      -0.592
   797     64.05   -1012.57965   -1012.48859    1000.000      -1.505
   798     49.76   -1012.55827   -1012.48752    1000.000      -1.164
   799     43.95   -1012.55036   -1012.48786    1000.000      -1.271
   800     47.81   -1012.55496   -1012.48699    1000.000      -1.229
   801     55.85   -1012.56831   -1012.48890    1000.000       0.142
   802     55.47   -1012.56739   -1012.48852    1000.000       0.988
   803     42.09   -1012.54749   -1012.48764    1000.000       1.119
   804     25.31   -1012.52225   -1012.48626    1000.000       1.801
   805     21.95   -1012.51602   -1012.48482    1000.000       1.752
   806     35.69   -1012.53803   -1012.48728    1000.000       0.417
   807     53.64   -1012.56506   -1012.48879    1000.000      -0.229
   808     64.36   -1012.57978   -1012.48827    1000.000      -0.564
   809     63.21   -1012.57962   -1012.48975    1000.000      -1.645
   810     50.30   -1012.56000   -1012.48847    1000.000      -1.552
   811     37.05   -1012.53908   -1012.48640    1000.000      -0.578
   812     34.77   -1012.53722   -1012.48779    1000.000      -0.425
   813     40.42   -1012.54542   -1012.48795    1000.000       0.196
   814     46.06   -1012.55274   -1012.48725    1000.000       1.588
   815     49.96   -1012.55825   -1012.48722    1000.000       1.566
   816     54.20   -1012.56413   -1012.48707    1000.000       1.096
   817     56.41   -1012.56648   -1012.48628    1000.000       1.179
   818     56.26   -1012.56655   -1012.48656    1000.000       0.187
   819     54.26   -1012.56442   -1012.48727    1000.000      -1.107
   820     46.49   -1012.55305   -1012.48695    1000.000      -1.094
   821     33.95   -1012.53455   -1012.48627    1000.000      -1.189
   822     25.53   -1012.52261   -1012.48631    1000.000      -1.419
   823     25.92   -1012.52362   -1012.48677    1000.000      -0.329
   824     34.10   -1012.53583   -1012.48735    1000.000       0.685
   825     47.68   -1012.55576   -1012.48797    1000.000       0.895
   826     60.73   -1012.57593   -1012.48959    1000.000       1.489
   827     63.16   -1012.57896   -1012.48916    1000.000       1.846
   828     57.62   -1012.57014   -1012.48821    1000.000       0.814
   829     53.42   -1012.56487   -1012.48892    1000.000       0.104
   830     50.60   -1012.55936   -1012.48741    1000.000      -0.231
   831     49.17   -1012.55704   -1012.48712    1000.000      -1.310
   832     50.21   -1012.55994   -1012.48855    1000.000      -1.732
   833     47.56   -1012.55437   -1012.48675    1000.000      -1.013
   834     37.22   -1012.54037   -1012.48745    1000.000      -0.664
   835     25.36   -1012.52256   -1012.48650    1000.000      -0.119
   836     25.16   -1012.52035   -1012.48458    1000.000       1.215
   837     39.78   -1012.54460   -1012.48804    1000.000       1.699
   838     58.10   -1012.57123   -1012.48862    1000.000       1.454
   839     70.68   -1012.58989   -1012.48939    1000.000       1.494
   840     66.74   -1012.58659   -1012.49170    1000.000       0.730
   841     46.08   -1012.55416   -1012.48863    1000.000      -0.598
   842     28.53   -1012.52834   -1012.48777    1000.000      -1.102
   843     27.77   -1012.52789   -1012.48841    1000.000      -1.332
   844     40.89   -1012.54625   -1012.48811    1000.000      -1.676
   845     58.35   -1012.57336   -1012.49039    1000.000      -1.058
   846     66.34   -1012.58352   -1012.48920    1000.000       0.071
   847     59.15   -1012.57276   -1012.48866    1000.000       0.573
   848     45.70   -1012.55303   -1012.48806    1000.000       1.202
   849     40.46   -1012.54249   -1012.48496    1000.000       2.041
   850     46.83   -1012.55494   -1012.48835    1000.000       1.417
   851     50.41   -1012.56105   -1012.48938    1000.000       0.632
   852     45.23   -1012.55099   -1012.48668    1000.000       0.228
   853     36.90   -1012.54161   -1012.48915    1000.000      -0.840
   854     27.82   -1012.52694   -1012.48738    1000.000      -1.622
   855     28.93   -1012.52747   -1012.48633    1000.000      -1.297
   856     44.48   -1012.55315   -1012.48992    1000.000      -0.963
   857     60.72   -1012.57582   -1012.48948    1000.000      -0.611
   858     65.75   -1012.58387   -1012.49038    1000.000       0.568
   859     60.42   -1012.57532   -1012.48941    1000.000       1.412
   860     54.16   -1012.56424   -1012.48724    1000.000       1.310
   861     52.76   -1012.56448   -1012.48947    1000.000       1.430
   862     52.79   -1012.56215   -1012.48709    1000.000       1.188
   863     51.70   -1012.56143   -1012.48792    1000.000      -0.074
   864     42.13   -1012.54948   -1012.48958    1000.000      -0.727
   865     25.02   -1012.51889   -1012.48332    1000.000      -0.859
   866     20.54   -1012.51474   -1012.48553    1000.000      -1.556
   867     32.20   -1012.53293   -1012.48715    1000.000      -1.259
   868     50.51   -1012.55689   -1012.48507    1000.000      -0.200
   869     66.81   -1012.58538   -1012.49039    1000.000       0.085
   870     68.49   -1012.58660   -1012.48922    1000.000       0.820
   871     53.66   -1012.56377   -1012.48748    1000.000       1.839
   872     35.87   -1012.54019   -1012.48920    1000.000       1.551
   873     30.63   -1012.52931   -1012.48576    1000.000       1.039
   874     42.50   -1012.54943   -1012.48900    1000.000       0.600
   875     55.53   -1012.56976   -1012.49081    1000.000      -0.338
   876     59.80   -1012.57282   -1012.48780    1000.000      -1.257
   877     56.25   -1012.57069   -1012.49070    1000.000      -1.345
   878     42.64   -1012.54733   -1012.48671    1000.000      -1.262
   879     34.22   -1012.53390   -1012.48525    1000.000      -1.118
   880     40.29   -1012.54615   -1012.48887    1000.000      -0.035
   881     50.05   -1012.55726   -1012.48609    1000.000       1.075
   882     55.09   -1012.56742   -1012.48909    1000.000       1.268
   883     49.80   -1012.56013   -1012.48933    1000.000       1.667
   884     36.94   -1012.53799   -1012.48547    1000.000       1.722
   885     26.42   -1012.52589   -1012.48832    1000.000       0.547
   886     26.33   -1012.52407   -1012.48663    1000.000      -0.126
   887     40.23   -1012.54400   -1012.48679    1000.000      -0.628
   888     58.06   -1012.57373   -1012.49118    1000.000      -1.663
   889     66.81   -1012.58300   -1012.48800    1000.000      -1.697
   890     68.31   -1012.58656   -1012.48943    1000.000      -0.948
   891     60.81   -1012.57635   -1012.48989    1000.000      -0.488
   892     48.13   -1012.55471   -1012.48629    1000.000       0.317
   893     41.87   -1012.54847   -1012.48895    1000.000       1.473
   894     39.64   -1012.54448   -1012.48812    1000.000       1.695
   895     36.05   -1012.53862   -1012.48736    1000.000       1.373
   896     32.12   -1012.53454   -1012.48887    1000.000       1.225
   897     30.94   -1012.52910   -1012.48511    1000.000       0.354
   898     38.07   -1012.54122   -1012.48709    1000.000      -0.947
   899     50.29   -1012.55969   -1012.48820    1000.000      -1.149
   900     61.31   -1012.57321   -1012.48604    1000.000      -1.231
   901     65.06   -1012.58250   -1012.49000    1000.000      -1.493
   902     54.18   -1012.56436   -1012.48733    1000.000      -0.545
   903     40.41   -1012.54249   -1012.48503    1000.000       0.470
   904     37.36   -1012.54135   -1012.48824    1000.000       0.738
   905     43.62   -1012.54806   -1012.48604    1000.000       1.439
   906     55.19   -1012.56682   -1012.48835    1000.000       1.886
   907     60.77   -1012.57678   -1012.49037    1000.000       0.973
   908     52.35   -1012.56159   -1012.48715    1000.000       0.312
   909     39.50   -1012.54404   -1012.48788    1000.000      -0.153
   910     35.27   -1012.53625   -1012.48610    1000.000      -1.214
   911     45.45   -1012.55142   -1012.48680    1000.000      -1.696
   912     58.70   -1012.57345   -1012.48999    1000.000      -1.087
   913     60.34   -1012.57310   -1012.48732    1000.000      -0.701
   914     49.39   -1012.55909   -1012.48886    1000.000      -0.294
   915     29.17   -1012.52873   -1012.48726    1000.000       1.100
   916     16.10   -1012.50609   -1012.48321    1000.000       1.707
   917     28.14   -1012.52703   -1012.48703    1000.000       1.419
   918     54.85   -1012.56550   -1012.48752    1000.000       1.463
   919     75.75   -1012.59611   -1012.48841    1000.000       0.874
   920     78.61   -1012.60198   -1012.49022    1000.000      -0.607
   921     63.44   -1012.57641   -1012.48622    1000.000      -1.001
   922     44.59   -1012.54992   -1012.48653    1000.000      -1.244
   923     34.33   -1012.53468   -1012.48588    1000.000      -1.835
   924     38.75   -1012.54070   -1012.48560    1000.000      -1.188
   925     47.85   -1012.55734   -1012.48931    1000.000       0.049
   926     46.35   -1012.55292   -1012.48702    1000.000       0.539
   927     38.07   -1012.54091   -1012.48678    1000.000       1.267
   928     31.39   -1012.53148   -1012.48684    1000.000       2.101
   929     32.03   -1012.52971   -1012.48417    1000.000       1.571
   930     45.58   -1012.55181   -1012.48701    1000.000       0.664
   931     61.17   -1012.57452   -1012.48756    1000.000       0.350
   932     64.58   -1012.57862   -1012.48680    1000.000      -0.799
   933     55.96   -1012.56687   -1012.48730    1000.000      -1.818
   934     45.69   -1012.54882   -1012.48386    1000.000      -1.328
   935     44.33   -1012.54862   -1012.48560    1000.000      -1.087
   936     47.23   -1012.55387   -1012.48672    1000.000      -0.949
   937     50.36   -1012.55671   -1012.48511    1000.000       0.579
   938     50.59   -1012.55963   -1012.48771    1000.000       1.537
   939     42.69   -1012.54699   -1012.48629    1000.000       1.414
   940     36.46   -1012.53659   -1012.48475    1000.000       1.745
   941     42.30   -1012.54678   -1012.48664    1000.000       1.465
   942     53.68   -1012.56313   -1012.48681    1000.000       0.090
   943     60.05   -1012.57368   -1012.48829    1000.000      -0.761
   944     54.34   -1012.56509   -1012.48783    1000.000      -0.876
   945     38.22   -1012.54010   -1012.48576    1000.000      -1.566
   946     23.47   -1012.51906   -1012.48569    1000.000      -1.551
   947     22.86   -1012.51591   -1012.48340    1000.000      -0.254
   948     41.45   -1012.54455   -1012.48561    1000.000       0.202
   949     63.86   -1012.57869   -1012.48789    1000.000       0.542
   950     74.78   -1012.59304   -1012.48672    1000.000       1.761
   951     71.11   -1012.58958   -1012.48848    1000.000       1.690
   952     54.50   -1012.56475   -1012.48725    1000.000       0.803
   953     36.58   -1012.53647   -1012.48447    1000.000       0.629
   954     33.79   -1012.53414   -1012.48610    1000.000      -0.113
   955     43.93   -1012.54942   -1012.48696    1000.000      -1.359
   956     52.02   -1012.56196   -1012.48800    1000.000      -1.419
   957     48.22   -1012.55621   -1012.48765    1000.000      -1.026
   958     36.24   -1012.53719   -1012.48566    1000.000      -1.137
   959     27.47   -1012.52534   -1012.48627    1000.000      -0.235
   960     28.79   -1012.52547   -1012.48453    1000.000       1.120
   961     44.60   -1012.54897   -1012.48556    1000.000       1.233
   962     65.02   -1012.58138   -1012.48894    1000.000       1.459
   963     71.59   -1012.58827   -1012.48648    1000.000       1.779
   964     63.78   -1012.57809   -1012.48741    1000.000       0.636
   965     47.91   -1012.55466   -1012.48655    1000.000      -0.463
   966     35.85   -1012.53479   -1012.48382    1000.000      -0.710
   967     37.16   -1012.53957   -1012.48673    1000.000      -1.417
   968     47.02   -1012.55364   -1012.48678    1000.000      -1.783
   969     54.07   -1012.56388   -1012.48699    1000.000      -0.906
   970     50.79   -1012.55947   -1012.48726    1000.000      -0.146
   971     43.17   -1012.54585   -1012.48447    1000.000       0.305
   972     42.67   -1012.54676   -1012.48609    1000.000       1.390
   973     46.26   -1012.55147   -1012.48570    1000.000       1.955
   974     50.83   -1012.55798   -1012.48572    1000.000       1.356
   975     52.69   -1012.56311   -1012.48820    1000.000       1.021
   976     44.23   -1012.54824   -1012.48535    1000.000       0.441
   977     33.32   -1012.53220   -1012.48482    1000.000      -0.964
   978     33.26   -1012.53240   -1012.48511    1000.000      -1.495
   979     46.66   -1012.55064   -1012.48431    1000.000      -1.195
   980     63.18   -1012.57783   -1012.48800    1000.000      -1.422
   981     68.79   -1012.58489   -1012.48708    1000.000      -0.768
   982     61.76   -1012.57373   -1012.48592    1000.000       0.597
   983     48.65   -1012.55586   -1012.48669    1000.000       1.022
   984     39.15   -1012.53949   -1012.48382    1000.000       1.256
   985     44.12   -1012.54814   -1012.48540    1000.000       1.745
   986     54.23   -1012.56410   -1012.48699    1000.000       1.174
   987     55.60   -1012.56533   -1012.48627    1000.000       0.055
   988     44.53   -1012.55041   -1012.48710    1000.000      -0.186
   989     26.05   -1012.52106   -1012.48402    1000.000      -0.784
   990     17.06   -1012.50771   -1012.48346    1000.000      -1.587
   991     28.57   -1012.52498   -1012.48436    1000.000      -1.223
   992     55.69   -1012.56402   -1012.48483    1000.000      -0.535
   993     78.73   -1012.60079   -1012.48886    1000.000      -0.270
   994     78.77   -1012.59997   -1012.48798    1000.000       0.755
   995     59.96   -1012.57127   -1012.48601    1000.000       1.687
   996     38.41   -1012.54107   -1012.48647    1000.000       1.358
   997     27.13   -1012.52285   -1012.48428    1000.000       1.065
   998     34.91   -1012.53567   -1012.48603    1000.000       0.841
   999     51.77   -1012.56191   -1012.48830    1000.000      -0.231
  1000     59.46   -1012.57231   -1012.48776    1000.000      -1.155
